scene,dur,scene_a,scene_b,cor_resp,jitter,path,cond,Instructions5.thisRepN,Instructions5.thisTrialN,Instructions5.thisN,Instructions5.thisIndex,Int_All_Runs.thisRepN,Int_All_Runs.thisTrialN,Int_All_Runs.thisN,Int_All_Runs.thisIndex,Int_Run.thisRepN,Int_Run.thisTrialN,Int_Run.thisN,Int_Run.thisIndex,key_resp_8.keys,key_resp_8.rt,Resp.keys,Resp.corr,Resp.rt,participant,session,date,expName,psychopyVersion,frameRate,
11.png,8.468560955733523,10.png,3.png,j,6.89127753156216,blue,No_Int,,,,,0,0,0,0,0,0,0,0,space,17.993948068000464,j,1,0.874071718999403,31,001,2019_Oct_20_1337,Integration Scanner Trials,3.0.1,59.86558428252165,
16.png,7.401281696050045,10.png,9.png,j,5.090236596889687,blue,No_Int,,,,,0,0,0,0,0,1,1,1,,,j,1,1.607505919999312,31,001,2019_Oct_20_1337,Integration Scanner Trials,3.0.1,59.86558428252165,
5.png,7.80346439156399,14.png,12.png,j,6.982842790991298,blue,No_Int,,,,,0,0,0,0,0,2,2,2,,,j,1,2.3022330940002576,31,001,2019_Oct_20_1337,Integration Scanner Trials,3.0.1,59.86558428252165,
12.png,5.087555220755659,15.png,7.png,j,6.461039330343438,blue,No_Int,,,,,0,0,0,0,0,3,3,3,,,j,1,1.2216499740006839,31,001,2019_Oct_20_1337,Integration Scanner Trials,3.0.1,59.86558428252165,
8.png,8.129630846093658,10.png,9.png,j,6.976954935133362,blue,No_Int,,,,,0,0,0,0,0,4,4,4,,,j,1,1.6026070509997226,31,001,2019_Oct_20_1337,Integration Scanner Trials,3.0.1,59.86558428252165,
10.png,7.926974445545255,8.png,1.png,k,5.651296257577126,blue,No_Int,,,,,0,0,0,0,0,5,5,5,,,k,1,1.655703094999808,31,001,2019_Oct_20_1337,Integration Scanner Trials,3.0.1,59.86558428252165,
4.png,5.711183588473918,14.png,12.png,j,6.918678484578215,blue,No_Int,,,,,0,0,0,0,0,6,6,6,,,j,1,1.4152544799999305,31,001,2019_Oct_20_1337,Integration Scanner Trials,3.0.1,59.86558428252165,
13.png,8.125773495513265,7.png,5.png,j,6.038169958817424,blue,No_Int,,,,,0,0,0,0,0,7,7,7,,,j,1,2.5984477760002846,31,001,2019_Oct_20_1337,Integration Scanner Trials,3.0.1,59.86558428252165,
10.png,5.117495611676251,11.png,2.png,k,6.573066298915812,green,Int,,,,,0,0,0,0,0,8,8,8,,,k,1,2.154372136999882,31,001,2019_Oct_20_1337,Integration Scanner Trials,3.0.1,59.86558428252165,
2.png,8.473652201357346,7.png,11.png,k,5.558697179223329,green,Int,,,,,0,0,0,0,0,9,9,9,,,None,0,,31,001,2019_Oct_20_1337,Integration Scanner Trials,3.0.1,59.86558428252165,
11.png,5.177590677341517,7.png,14.png,j,6.459471265567201,green,Int,,,,,0,0,0,0,0,10,10,10,,,k,0,2.809942117000901,31,001,2019_Oct_20_1337,Integration Scanner Trials,3.0.1,59.86558428252165,
4.png,5.834064213682391,1.png,2.png,j,5.727884957609141,green,Int,,,,,0,0,0,0,0,11,11,11,,,j,1,2.037455712999872,31,001,2019_Oct_20_1337,Integration Scanner Trials,3.0.1,59.86558428252165,
5.png,8.205758283554541,3.png,13.png,k,5.890094155579179,green,Int,,,,,0,0,0,0,0,12,12,12,,,k,1,1.898027708999507,31,001,2019_Oct_20_1337,Integration Scanner Trials,3.0.1,59.86558428252165,
1.png,8.87202419105731,2.png,8.png,j,6.082757916083825,green,Int,,,,,0,0,0,0,0,13,13,13,,,j,1,1.0798203710000962,31,001,2019_Oct_20_1337,Integration Scanner Trials,3.0.1,59.86558428252165,
9.png,8.76489049498619,7.png,14.png,j,5.224927279959228,green,Int,,,,,0,0,0,0,0,14,14,14,,,j,1,1.8909796790003384,31,001,2019_Oct_20_1337,Integration Scanner Trials,3.0.1,59.86558428252165,
16.png,7.641484488324044,9.png,2.png,k,5.722581880246092,green,Int,,,,,0,0,0,0,0,15,15,15,,,j,0,1.8891049750000093,31,001,2019_Oct_20_1337,Integration Scanner Trials,3.0.1,59.86558428252165,
14.png,8.702124647416799,5.png,13.png,j,6.306621180448469,green,Int,,,,,0,0,0,0,0,16,16,16,,,k,0,2.42484153300029,31,001,2019_Oct_20_1337,Integration Scanner Trials,3.0.1,59.86558428252165,
15.png,8.127793380856941,16.png,4.png,k,6.395918103762823,green,Int,,,,,0,0,0,0,0,17,17,17,,,j,0,1.8023778209999364,31,001,2019_Oct_20_1337,Integration Scanner Trials,3.0.1,59.86558428252165,
13.png,8.219643465949815,16.png,4.png,k,5.295107538145067,green,Int,,,,,0,0,0,0,0,18,18,18,,,j,0,2.3865873400000055,31,001,2019_Oct_20_1337,Integration Scanner Trials,3.0.1,59.86558428252165,
12.png,5.238515732058211,14.png,7.png,k,5.559212758331671,green,Int,,,,,0,0,0,0,0,19,19,19,,,k,1,1.8930531530004373,31,001,2019_Oct_20_1337,Integration Scanner Trials,3.0.1,59.86558428252165,
7.png,8.453779365028502,13.png,15.png,j,5.911845575754252,green,Int,,,,,0,0,0,0,0,20,20,20,,,j,1,1.4732012629992823,31,001,2019_Oct_20_1337,Integration Scanner Trials,3.0.1,59.86558428252165,
6.png,6.144406529256423,15.png,4.png,j,6.820169122829617,green,Int,,,,,0,0,0,0,0,21,21,21,,,None,0,,31,001,2019_Oct_20_1337,Integration Scanner Trials,3.0.1,59.86558428252165,
3.png,7.341919650025056,2.png,9.png,j,6.37082277305506,green,Int,,,,,0,0,0,0,0,22,22,22,,,k,0,1.6313980439999796,31,001,2019_Oct_20_1337,Integration Scanner Trials,3.0.1,59.86558428252165,
8.png,6.556239172116959,7.png,6.png,j,6.816367576939307,green,Int,,,,,0,0,0,0,0,23,23,23,,,j,1,1.4210753999996086,31,001,2019_Oct_20_1337,Integration Scanner Trials,3.0.1,59.86558428252165,
,,,,,,,,,,,,0,0,0,0,,,,,,,,,,31,001,2019_Oct_20_1337,Integration Scanner Trials,3.0.1,59.86558428252165,
3.png,7.536310321385523,16.png,2.png,j,6.22161960585563,blue,No_Int,,,,,1,0,1,0,0,0,0,0,,,j,1,2.170993023999472,31,001,2019_Oct_20_1337,Integration Scanner Trials,3.0.1,59.86558428252165,
1.png,6.820069244473857,11.png,2.png,k,5.098435143126851,blue,No_Int,,,,,1,0,1,0,0,1,1,1,,,k,1,1.5739959479997196,31,001,2019_Oct_20_1337,Integration Scanner Trials,3.0.1,59.86558428252165,
15.png,8.793519016124216,5.png,13.png,j,5.648676325155588,blue,No_Int,,,,,1,0,1,0,0,2,2,2,,,j,1,1.9264066830000957,31,001,2019_Oct_20_1337,Integration Scanner Trials,3.0.1,59.86558428252165,
6.png,8.015199324974546,15.png,5.png,j,6.561841672366301,blue,No_Int,,,,,1,0,1,0,0,3,3,3,,,j,1,1.2814679470002375,31,001,2019_Oct_20_1337,Integration Scanner Trials,3.0.1,59.86558428252165,
9.png,6.690140006355409,1.png,16.png,j,5.827103928194184,blue,No_Int,,,,,1,0,1,0,0,4,4,4,,,j,1,1.8416361230001712,31,001,2019_Oct_20_1337,Integration Scanner Trials,3.0.1,59.86558428252165,
2.png,6.554704035408199,1.png,3.png,k,5.79234575906781,blue,No_Int,,,,,1,0,1,0,0,5,5,5,,,k,1,1.885833502999958,31,001,2019_Oct_20_1337,Integration Scanner Trials,3.0.1,59.86558428252165,
14.png,7.889617671888539,7.png,15.png,k,6.590618703142463,blue,No_Int,,,,,1,0,1,0,0,6,6,6,,,k,1,1.7226810189995376,31,001,2019_Oct_20_1337,Integration Scanner Trials,3.0.1,59.86558428252165,
7.png,8.606819896321939,5.png,4.png,j,5.217015153070389,blue,No_Int,,,,,1,0,1,0,0,7,7,7,,,j,1,1.3828806050005369,31,001,2019_Oct_20_1337,Integration Scanner Trials,3.0.1,59.86558428252165,
7.png,5.008577764621345,15.png,13.png,k,5.313737022797202,green,Int,,,,,1,0,1,0,0,8,8,8,,,k,1,1.8879844460007007,31,001,2019_Oct_20_1337,Integration Scanner Trials,3.0.1,59.86558428252165,
10.png,5.232674149273496,8.png,2.png,k,5.886284545469369,green,Int,,,,,1,0,1,0,0,9,9,9,,,j,0,2.0507966750001287,31,001,2019_Oct_20_1337,Integration Scanner Trials,3.0.1,59.86558428252165,
2.png,5.429061668704637,7.png,9.png,k,5.999497440099318,green,Int,,,,,1,0,1,0,0,10,10,10,,,k,1,2.6046595939997133,31,001,2019_Oct_20_1337,Integration Scanner Trials,3.0.1,59.86558428252165,
8.png,7.362305411105536,14.png,7.png,k,5.146144827342706,green,Int,,,,,1,0,1,0,0,11,11,11,,,j,0,1.7230420349997075,31,001,2019_Oct_20_1337,Integration Scanner Trials,3.0.1,59.86558428252165,
13.png,6.749214659785829,3.png,4.png,k,6.787032264040759,green,Int,,,,,1,0,1,0,0,12,12,12,,,k,1,1.6496464550000383,31,001,2019_Oct_20_1337,Integration Scanner Trials,3.0.1,59.86558428252165,
11.png,5.599143359578845,5.png,6.png,k,6.74951031105938,green,Int,,,,,1,0,1,0,0,13,13,13,,,k,1,2.461027180000201,31,001,2019_Oct_20_1337,Integration Scanner Trials,3.0.1,59.86558428252165,
4.png,5.987451451384048,2.png,10.png,k,5.440578516656227,green,Int,,,,,1,0,1,0,0,14,14,14,,,k,1,2.4495979960001932,31,001,2019_Oct_20_1337,Integration Scanner Trials,3.0.1,59.86558428252165,
5.png,5.768886136729572,15.png,16.png,j,5.403479762130367,green,Int,,,,,1,0,1,0,0,15,15,15,,,k,0,2.18267887500042,31,001,2019_Oct_20_1337,Integration Scanner Trials,3.0.1,59.86558428252165,
1.png,7.940921575415201,11.png,12.png,j,5.890746419180946,green,Int,,,,,1,0,1,0,0,16,16,16,,,j,1,1.8428817490002984,31,001,2019_Oct_20_1337,Integration Scanner Trials,3.0.1,59.86558428252165,
12.png,8.200049021243201,7.png,13.png,j,5.620384621486322,green,Int,,,,,1,0,1,0,0,17,17,17,,,j,1,1.459504604000358,31,001,2019_Oct_20_1337,Integration Scanner Trials,3.0.1,59.86558428252165,
14.png,8.549165972900152,4.png,13.png,k,6.53063266480487,green,Int,,,,,1,0,1,0,0,18,18,18,,,k,1,2.066246554999452,31,001,2019_Oct_20_1337,Integration Scanner Trials,3.0.1,59.86558428252165,
9.png,5.140495657101654,14.png,11.png,k,6.429432262585201,green,Int,,,,,1,0,1,0,0,19,19,19,,,k,1,2.4320211009999184,31,001,2019_Oct_20_1337,Integration Scanner Trials,3.0.1,59.86558428252165,
16.png,7.412968019007472,2.png,9.png,j,6.019612971014132,green,Int,,,,,1,0,1,0,0,20,20,20,,,None,0,,31,001,2019_Oct_20_1337,Integration Scanner Trials,3.0.1,59.86558428252165,
15.png,8.594322593020035,10.png,1.png,j,6.651304088102841,green,Int,,,,,1,0,1,0,0,21,21,21,,,j,1,1.995651402000476,31,001,2019_Oct_20_1337,Integration Scanner Trials,3.0.1,59.86558428252165,
6.png,5.046718958633816,5.png,3.png,j,5.004484654018515,green,Int,,,,,1,0,1,0,0,22,22,22,,,j,1,1.8469301450004423,31,001,2019_Oct_20_1337,Integration Scanner Trials,3.0.1,59.86558428252165,
3.png,6.600306935962472,16.png,9.png,j,6.991436044435538,green,Int,,,,,1,0,1,0,0,23,23,23,,,k,0,2.2231729790000827,31,001,2019_Oct_20_1337,Integration Scanner Trials,3.0.1,59.86558428252165,
,,,,,,,,,,,,1,0,1,0,,,,,,,,,,31,001,2019_Oct_20_1337,Integration Scanner Trials,3.0.1,59.86558428252165,
6.png,6.870893970334404,7.png,4.png,j,5.456218074095672,blue,No_Int,,,,,2,0,2,0,0,0,0,0,,,j,1,0.9859027590000551,31,001,2019_Oct_20_1337,Integration Scanner Trials,3.0.1,59.86558428252165,
15.png,8.055028982809146,5.png,7.png,k,5.474890365504096,blue,No_Int,,,,,2,0,2,0,0,1,1,1,,,k,1,1.5574358050007504,31,001,2019_Oct_20_1337,Integration Scanner Trials,3.0.1,59.86558428252165,
2.png,5.1679665746791,3.png,1.png,j,5.279869944360312,blue,No_Int,,,,,2,0,2,0,0,2,2,2,,,k,0,2.679759214999649,31,001,2019_Oct_20_1337,Integration Scanner Trials,3.0.1,59.86558428252165,
4.png,6.149192019835838,14.png,6.png,j,6.502894755471949,blue,No_Int,,,,,2,0,2,0,0,3,3,3,,,k,0,2.6715750590001335,31,001,2019_Oct_20_1337,Integration Scanner Trials,3.0.1,59.86558428252165,
11.png,6.784999910526752,8.png,1.png,k,5.823867977144294,blue,No_Int,,,,,2,0,2,0,0,4,4,4,,,j,0,2.191008304999741,31,001,2019_Oct_20_1337,Integration Scanner Trials,3.0.1,59.86558428252165,
3.png,5.730480821208557,16.png,11.png,j,5.386324475942448,blue,No_Int,,,,,2,0,2,0,0,5,5,5,,,j,1,2.8012006629996904,31,001,2019_Oct_20_1337,Integration Scanner Trials,3.0.1,59.86558428252165,
10.png,5.073110804957984,3.png,1.png,j,5.241147039930504,blue,No_Int,,,,,2,0,2,0,0,6,6,6,,,j,1,1.9082224809999389,31,001,2019_Oct_20_1337,Integration Scanner Trials,3.0.1,59.86558428252165,
7.png,8.147252033686591,12.png,14.png,k,6.219232410796263,blue,No_Int,,,,,2,0,2,0,0,7,7,7,,,k,1,1.333533494999756,31,001,2019_Oct_20_1337,Integration Scanner Trials,3.0.1,59.86558428252165,
6.png,8.405129184288374,3.png,4.png,k,6.404540310660538,green,Int,,,,,2,0,2,0,0,8,8,8,,,j,0,2.719339024999499,31,001,2019_Oct_20_1337,Integration Scanner Trials,3.0.1,59.86558428252165,
9.png,8.402749621200202,11.png,12.png,j,6.983863008696284,green,Int,,,,,2,0,2,0,0,9,9,9,,,j,1,1.9014403019991732,31,001,2019_Oct_20_1337,Integration Scanner Trials,3.0.1,59.86558428252165,
11.png,7.463775862388689,5.png,14.png,k,6.421889170061724,green,Int,,,,,2,0,2,0,0,10,10,10,,,k,1,1.85257007600012,31,001,2019_Oct_20_1337,Integration Scanner Trials,3.0.1,59.86558428252165,
2.png,5.978744072052406,11.png,12.png,j,5.999302509892126,green,Int,,,,,2,0,2,0,0,11,11,11,,,j,1,2.1714740349998465,31,001,2019_Oct_20_1337,Integration Scanner Trials,3.0.1,59.86558428252165,
14.png,7.611479115800651,15.png,4.png,j,5.891509388538951,green,Int,,,,,2,0,2,0,0,12,12,12,,,j,1,1.9731379690001631,31,001,2019_Oct_20_1337,Integration Scanner Trials,3.0.1,59.86558428252165,
7.png,7.052349857808531,14.png,15.png,j,5.728583769516294,green,Int,,,,,2,0,2,0,0,13,13,13,,,k,0,2.266811551000501,31,001,2019_Oct_20_1337,Integration Scanner Trials,3.0.1,59.86558428252165,
1.png,8.973516542448813,8.png,2.png,k,6.62790239955961,green,Int,,,,,2,0,2,0,0,14,14,14,,,k,1,1.200889718000326,31,001,2019_Oct_20_1337,Integration Scanner Trials,3.0.1,59.86558428252165,
3.png,6.010207269229896,9.png,2.png,k,5.685306224053853,green,Int,,,,,2,0,2,0,0,15,15,15,,,j,0,2.233387932000369,31,001,2019_Oct_20_1337,Integration Scanner Trials,3.0.1,59.86558428252165,
10.png,5.105341798744037,11.png,8.png,k,5.441810215261814,green,Int,,,,,2,0,2,0,0,16,16,16,,,j,0,2.117351745000633,31,001,2019_Oct_20_1337,Integration Scanner Trials,3.0.1,59.86558428252165,
13.png,6.606260009670016,4.png,15.png,k,5.42792532658856,green,Int,,,,,2,0,2,0,0,17,17,17,,,k,1,1.556818418000148,31,001,2019_Oct_20_1337,Integration Scanner Trials,3.0.1,59.86558428252165,
8.png,7.507871545169438,12.png,6.png,j,6.611243606233289,green,Int,,,,,2,0,2,0,0,18,18,18,,,None,0,,31,001,2019_Oct_20_1337,Integration Scanner Trials,3.0.1,59.86558428252165,
4.png,7.606066416690105,2.png,10.png,k,5.982817948006185,green,Int,,,,,2,0,2,0,0,19,19,19,,,k,1,1.7169776339997043,31,001,2019_Oct_20_1337,Integration Scanner Trials,3.0.1,59.86558428252165,
15.png,5.938567481454752,10.png,3.png,k,5.433803062520534,green,Int,,,,,2,0,2,0,0,20,20,20,,,j,0,2.278910550000546,31,001,2019_Oct_20_1337,Integration Scanner Trials,3.0.1,59.86558428252165,
16.png,5.987962265350625,8.png,1.png,k,6.439550424511112,green,Int,,,,,2,0,2,0,0,21,21,21,,,k,1,2.805677731999822,31,001,2019_Oct_20_1337,Integration Scanner Trials,3.0.1,59.86558428252165,
12.png,5.913857373468955,7.png,14.png,j,5.428213812324904,green,Int,,,,,2,0,2,0,0,22,22,22,,,j,1,1.3931995279999683,31,001,2019_Oct_20_1337,Integration Scanner Trials,3.0.1,59.86558428252165,
5.png,5.582456547379589,4.png,3.png,j,6.774595929570319,green,Int,,,,,2,0,2,0,0,23,23,23,,,j,1,2.5030468620007014,31,001,2019_Oct_20_1337,Integration Scanner Trials,3.0.1,59.86558428252165,
,,,,,,,,,,,,2,0,2,0,,,,,,,,,,31,001,2019_Oct_20_1337,Integration Scanner Trials,3.0.1,59.86558428252165,
9.png,6.990789332432876,2.png,16.png,k,5.720673292280612,blue,No_Int,,,,,3,0,3,0,0,0,0,0,,,j,0,2.4477457040002264,31,001,2019_Oct_20_1337,Integration Scanner Trials,3.0.1,59.86558428252165,
1.png,8.730534318587974,10.png,16.png,k,6.726684317445111,blue,No_Int,,,,,3,0,3,0,0,1,1,1,,,j,0,2.065270827999484,31,001,2019_Oct_20_1337,Integration Scanner Trials,3.0.1,59.86558428252165,
8.png,8.044029072994427,9.png,10.png,k,6.20104184327478,blue,No_Int,,,,,3,0,3,0,0,2,2,2,,,k,1,0.8929302799997458,31,001,2019_Oct_20_1337,Integration Scanner Trials,3.0.1,59.86558428252165,
12.png,7.978800945221021,6.png,7.png,j,6.525142327336846,blue,No_Int,,,,,3,0,3,0,0,3,3,3,,,j,1,1.4223947689997658,31,001,2019_Oct_20_1337,Integration Scanner Trials,3.0.1,59.86558428252165,
14.png,7.972099746465414,6.png,13.png,k,6.943456055482161,blue,No_Int,,,,,3,0,3,0,0,4,4,4,,,j,0,1.7743479579994528,31,001,2019_Oct_20_1337,Integration Scanner Trials,3.0.1,59.86558428252165,
16.png,8.916566832320537,11.png,10.png,j,5.947745177576921,blue,No_Int,,,,,3,0,3,0,0,5,5,5,,,j,1,1.7703063769995424,31,001,2019_Oct_20_1337,Integration Scanner Trials,3.0.1,59.86558428252165,
13.png,5.511966218502311,15.png,5.png,j,6.537936452784375,blue,No_Int,,,,,3,0,3,0,0,6,6,6,,,k,0,1.9784230420000313,31,001,2019_Oct_20_1337,Integration Scanner Trials,3.0.1,59.86558428252165,
5.png,8.623108449006608,12.png,13.png,k,6.299731671540731,blue,No_Int,,,,,3,0,3,0,0,7,7,7,,,k,1,2.8454426239995882,31,001,2019_Oct_20_1337,Integration Scanner Trials,3.0.1,59.86558428252165,
10.png,5.882305609887629,9.png,8.png,j,6.916018904469708,green,Int,,,,,3,0,3,0,0,8,8,8,,,j,1,2.251338788999419,31,001,2019_Oct_20_1337,Integration Scanner Trials,3.0.1,59.86558428252165,
2.png,8.993028615197558,8.png,12.png,j,5.762091650377721,green,Int,,,,,3,0,3,0,0,9,9,9,,,j,1,1.9976281909994213,31,001,2019_Oct_20_1337,Integration Scanner Trials,3.0.1,59.86558428252165,
3.png,7.917699313123304,1.png,10.png,k,5.640686288529658,green,Int,,,,,3,0,3,0,0,10,10,10,,,None,0,,31,001,2019_Oct_20_1337,Integration Scanner Trials,3.0.1,59.86558428252165,
12.png,6.170364233358093,7.png,14.png,j,5.594489903889984,green,Int,,,,,3,0,3,0,0,11,11,11,,,j,1,1.0597450269997353,31,001,2019_Oct_20_1337,Integration Scanner Trials,3.0.1,59.86558428252165,
7.png,6.052053403163756,13.png,6.png,k,6.172032948599287,green,Int,,,,,3,0,3,0,0,12,12,12,,,j,0,2.2094063009999445,31,001,2019_Oct_20_1337,Integration Scanner Trials,3.0.1,59.86558428252165,
15.png,7.420831776219508,4.png,10.png,j,5.302556889008832,green,Int,,,,,3,0,3,0,0,13,13,13,,,k,0,2.4517918820001796,31,001,2019_Oct_20_1337,Integration Scanner Trials,3.0.1,59.86558428252165,
6.png,5.931384057012351,5.png,15.png,j,5.267370955998333,green,Int,,,,,3,0,3,0,0,14,14,14,,,j,1,1.5489978410005278,31,001,2019_Oct_20_1337,Integration Scanner Trials,3.0.1,59.86558428252165,
9.png,7.778883398830715,12.png,14.png,j,6.954946911166942,green,Int,,,,,3,0,3,0,0,15,15,15,,,None,0,,31,001,2019_Oct_20_1337,Integration Scanner Trials,3.0.1,59.86558428252165,
14.png,7.763130036525459,4.png,15.png,k,5.097271348182101,green,Int,,,,,3,0,3,0,0,16,16,16,,,j,0,1.8057499879996612,31,001,2019_Oct_20_1337,Integration Scanner Trials,3.0.1,59.86558428252165,
13.png,6.358676783765659,16.png,10.png,j,6.874638423687797,green,Int,,,,,3,0,3,0,0,17,17,17,,,None,0,,31,001,2019_Oct_20_1337,Integration Scanner Trials,3.0.1,59.86558428252165,
4.png,8.177784243403273,2.png,1.png,k,6.1506457368613,green,Int,,,,,3,0,3,0,0,18,18,18,,,j,0,1.869598006999695,31,001,2019_Oct_20_1337,Integration Scanner Trials,3.0.1,59.86558428252165,
5.png,7.290274461047014,13.png,16.png,j,6.14363796189423,green,Int,,,,,3,0,3,0,0,19,19,19,,,j,1,2.000084197000433,31,001,2019_Oct_20_1337,Integration Scanner Trials,3.0.1,59.86558428252165,
1.png,7.616223428206971,12.png,11.png,k,6.002645481110734,green,Int,,,,,3,0,3,0,0,20,20,20,,,k,1,2.266310128999976,31,001,2019_Oct_20_1337,Integration Scanner Trials,3.0.1,59.86558428252165,
8.png,8.436398065820335,6.png,12.png,k,5.088156782297618,green,Int,,,,,3,0,3,0,0,21,21,21,,,k,1,1.78842716500003,31,001,2019_Oct_20_1337,Integration Scanner Trials,3.0.1,59.86558428252165,
11.png,6.6858608630912,6.png,14.png,k,6.438937590691997,green,Int,,,,,3,0,3,0,0,22,22,22,,,k,1,1.7802174790003846,31,001,2019_Oct_20_1337,Integration Scanner Trials,3.0.1,59.86558428252165,
16.png,7.372172990241305,9.png,2.png,k,5.242803148902803,green,Int,,,,,3,0,3,0,0,23,23,23,,,k,1,1.7245876470005896,31,001,2019_Oct_20_1337,Integration Scanner Trials,3.0.1,59.86558428252165,
,,,,,,,,,,,,3,0,3,0,,,,,,,,,,31,001,2019_Oct_20_1337,Integration Scanner Trials,3.0.1,59.86558428252165,
